Folder: EstrategiasDCA/data/historical

Note: README.md
# EstrategiasDCA
 

# Estrategia DCA (Dollar Cost Averaging) - Crypto Trading





## Descripción General
Este programa implementa una estrategia de inversión DCA (Dollar Cost Averaging) automatizada para el mercado de criptomonedas. El sistema analiza el mercado, genera recomendaciones de inversión y ejecuta operaciones de forma programada, manteniendo un seguimiento detallado del portafolio.

### Estrategia DCA
La estrategia Dollar Cost Averaging consiste en:
- Inversión periódica de una cantidad fija (ej: 100€ semanales)
- Distribución automática entre múltiples criptomonedas
- Ajuste dinámico basado en análisis de mercado
- Gestión de riesgos y rebalanceo de portafolio

### Parámetros de Configuración Principales
```python
# Configuración en src/analysis_config.py
INVESTMENT_PARAMS = {
    'amount': 100,              # Cantidad semanal en EUR
    'frequency': 'weekly',      # Frecuencia de inversión
    'max_per_asset': 0.30,     # Máximo 30% por activo
    'min_per_asset': 0.05,     # Mínimo 5% por activo
    'rebalance_threshold': 0.1  # Rebalanceo si desviación > 10%
}

RISK_PARAMS = {
    'max_volatility': 150,      # Volatilidad máxima permitida
    'min_volume': 1000000,      # Volumen mínimo 24h en EUR
    'max_drawdown': 0.25,       # Caída máxima permitida
    'stop_loss': 0.15          # Stop loss por activo
}

MARKET_ANALYSIS = {
    'timeframes': ['1h', '4h', '1d'],  # Períodos de análisis
    'indicators': ['RSI', 'MACD', 'BB'],  # Indicadores técnicos
    'trend_period': 14,         # Período para análisis de tendencia
    'volume_weight': 0.3        # Peso del volumen en decisiones
}
```

## Estructura del Proyecto
```
/Estrategias DCA/
├── src/                      # Código fuente principal
│   ├── __init__.py
│   ├── analysis_config.py    # Configuraciones de análisis
│   ├── backup_portfolio.py   # Sistema de respaldo
│   ├── dca_live_trader.py    # Módulo para ejecución de la estrategia DCA
│   └── dca_scheduler.py     # Archivo principal de ejecución
├── config/                   # Configuraciones
│   ├── .env                  # Variables de entorno
│   └── .env.template         # Plantilla de variables de entorno
├── data/                     # Datos y caché
│   ├── *_cache.csv          # Caché de datos por par de trading
│   └── dca_trading.db       # Base de datos SQLite
├── reports/                  # Reportes generados
│   ├── market_analysis_report.md
│   ├── portfolio_report.md
│   └── unified_report.md
├── logs/                     # Registros del sistema
│   └── dca_trader.log
└── backups/                  # Respaldos automáticos
    ├── daily/
    └── weekly/
```

## Archivo Principal
El punto de entrada principal es `src/dca_scheduler.py`. Este archivo programa la ejecución del análisis de mercado y la estrategia DCA.  El módulo `src/dca_live_trader.py` se encarga de ejecutar la estrategia DCA en sí misma.

## Requisitos Técnicos
- Python 3.8+
- Dependencias listadas en `requirements.txt`
- API Key de CoinMarket

File: XRD_historical_data.csv
timestamp,close,volume
2025-01-27,0.01233,386725.511
2025-01-25,0.01311,2.63226e+07
2025-01-23,0.01571,3.38299e+07
2025-01-21,0.01615,2.05052e+07
2025-01-19,0.01591,3.18446e+07
2025-01-17,0.01884,7342866.185
2025-01-15,0.01969,1.49512e+07
2025-01-13,0.01838,2.09444e+07
2025-01-11,0.01933,9.15374e+06
2025-01-09,0.01902,1.22289e+07
2025-01-07,0.02223,1.02054e+07
2025-01-05,0.02396,6.63204e+06
2025-01-03,0.02357,5.65815e+06
2025-01-01,0.02219,1.48442e+07
2024-12-30,0.023,6.37444e+06
2024-12-28,0.02456,4.9513e+06
2024-12-26,0.0235,1.01374e+07
2024-12-24,0.02605,1.0785e+07
2024-12-22,0.02461,1.02986e+07
2024-12-20,0.02592,3.08432e+07
2024-12-18,0.02707,1.396e+07
2024-12-16,0.03283,2.02155e+07
2024-12-14,0.03242,1.75643e+07
2024-12-12,0.03365,2.18556e+07
2024-12-10,0.0324,3.7332e+07
2024-12-08,0.03581,3.04273e+07
2024-12-06,0.03529,3.7633e+07
2024-12-04,0.03383,3.21625e+07
2024-12-02,0.02964,1.9107e+07
2024-11-30,0.03053,2.58238e+07
2024-11-28,0.02718,3.22218e+07
2024-11-26,0.02394,5.08906e+07
2024-11-24,0.02128,1.8466e+07
2024-11-22,0.02067,3.55783e+07
2024-11-20,0.01662,1.42512e+07
2024-11-18,0.01724,1.35996e+07
2024-11-16,0.01631,1.20225e+07
2024-11-14,0.01587,9.84082e+06
2024-11-12,0.01618,2.61617e+07
2024-11-10,0.01721,1.81735e+07
2024-11-08,0.01623,1.21131e+07
2024-11-06,0.01583,1.51559e+07
2024-11-04,0.01462,7.47579e+06
2024-11-02,0.01585,4.84351e+06
2024-10-31,0.01606,2.27759e+07
2024-10-29,0.01575,4.97701e+06
2024-10-27,0.0154,5.20803e+06
2024-10-25,0.01466,1.02079e+07
2024-10-23,0.01562,6.70781e+06
2024-10-21,0.01665,1.43762e+07
2024-10-19,0.01731,11734354.132
2024-10-17,0.01585,5.55615e+06
2024-10-15,0.0162,1.55678e+07
2024-10-13,0.01492,8.89245e+06
2024-10-11,0.01498,1.67271e+07
2024-10-09,0.01466,1.10379e+07
2024-10-07,0.0161,1.04446e+07
2024-10-05,0.01627,1.3744e+07
2024-10-03,0.01633,2.08655e+07
2024-10-01,0.01732,3.16667e+07
2024-09-29,0.02083,9.40159e+06
2024-09-27,0.02176,3.6104e+07
2024-09-25,0.02125,1.46611e+07
2024-09-23,0.02112,7.99976e+06
2024-09-21,0.02168,5.08415e+06
2024-09-19,0.0214,1.0117e+07
2024-09-17,0.02066,6.3323e+06
2024-09-15,0.02052,8.35922e+06
2024-09-13,0.02187,2.50577e+07
2024-09-11,0.0195,1.93932e+07
2024-09-09,0.0209,7.82724e+06
2024-09-07,0.02045,7268719.844
2024-09-05,0.02203,2.02039e+06
2024-09-03,0.02264,1988848.444
2024-09-01,0.02254,2077566.773
2024-08-30,0.02328,8.45728e+06
2024-08-28,0.0235,7.02319e+06
2024-08-26,0.02467,5.43355e+06
2024-08-24,0.02539,3.97689e+06
2024-08-22,0.02371,3.50892e+06
2024-08-20,0.02317,5.24646e+06
2024-08-18,0.02367,6.86567e+06
2024-08-16,0.02525,8.70912e+06
2024-08-14,0.02648,3.31034e+06
2024-08-12,0.0271,5.26621e+06
2024-08-10,0.02822,5.16968e+06
2024-08-08,0.02743,8.63437e+06
2024-08-06,0.02484,1.56921e+07
2024-08-04,0.02359,4.10012e+07
2024-08-02,0.02551,5.91703e+07
2024-07-31,0.02784,1.25186e+08
2024-07-29,0.028,8.79542e+06
2024-07-27,0.02849,5.32423e+06
2024-07-25,0.0272,7.18825e+06
2024-07-23,0.02768,9113088.576
2024-07-21,0.02873,8.00507e+06
2024-07-19,0.02902,1.31958e+07
2024-07-17,0.02971,7.43606e+06
2024-07-15,0.02978,1.08052e+07
2024-07-13,0.02782,9944923.383
2024-07-11,0.02797,4.23347e+06
2024-07-09,0.02836,4.33763e+06
2024-07-07,0.02755,7.94972e+06
2024-07-05,0.02871,1.8619e+07
2024-07-03,0.03065,14523788.885
2024-07-01,0.03081,8.13377e+06
2024-06-29,0.02943,7.95863e+06
2024-06-27,0.0299,5.38491e+06
2024-06-25,0.02996,7.90774e+06
2024-06-23,0.03028,3.65323e+06
2024-06-21,0.03121,6.42207e+06
2024-06-19,0.03283,3.90403e+06
2024-06-17,0.03331,1.11052e+07
2024-06-15,0.03459,3.36178e+06
2024-06-13,0.03516,8.77903e+06
2024-06-11,0.03709,7.27054e+06
2024-06-09,0.03914,2.32919e+06
2024-06-07,0.03905,7.61961e+06
2024-06-05,0.04001,7.41926e+06
2024-06-03,0.03917,4609324.387
2024-06-01,0.03901,4.69081e+06
2024-05-30,0.03937,8.54202e+06
2024-05-28,0.04016,7.80762e+06
2024-05-26,0.04094,6.43016e+06
2024-05-24,0.04127,6.24179e+06
2024-05-22,0.04354,6518748.777
2024-05-20,0.0461,8.86477e+06
2024-05-18,0.04542,5.25329e+06
2024-05-16,0.04407,9.40945e+06
2024-05-14,0.0427,6.88799e+06
2024-05-12,0.04426,2.60009e+06
2024-05-10,0.04468,1.44912e+07
2024-05-08,0.04212,5.47429e+06
2024-05-06,0.04398,7.89264e+06
2024-05-04,0.04646,7.46574e+06
2024-05-02,0.04334,1.49036e+07
2024-04-30,0.04609,8.45564e+06
2024-04-28,0.05,3.17187e+06
2024-04-26,0.05137,4.29571e+06
2024-04-24,0.0516,4.8161e+06
2024-04-22,0.05485,3.30183e+06
2024-04-20,0.05516,7.49588e+06
2024-04-18,0.0524,7.2867e+06
2024-04-16,0.05372,5.44434e+06
2024-04-14,0.05885,8.08737e+06
2024-04-12,0.06215,1.68981e+07
2024-04-10,0.07153,1.09967e+07
2024-04-08,0.07727,6.09061e+06
2024-04-06,0.07269,5.49159e+06
2024-04-04,0.06965,8.30145e+06
2024-04-02,0.06742,9.17907e+06
2024-03-31,0.07675,3.28189e+06
2024-03-29,0.07735,7.20808e+06
2024-03-27,0.0781,1.70287e+07
2024-03-25,0.08056,4.35465e+07
2024-03-23,0.06745,15840862.667
2024-03-21,0.06874,2.14999e+07
2024-03-19,0.06403,5.65697e+07
2024-03-17,0.06643,6.8951e+07
2024-03-15,0.06485,5.52474e+07
2024-03-13,0.0605,1.17526e+08
2024-03-11,0.04405,42684618.224
2024-03-09,0.03977,2.02029e+07
2024-03-07,0.03946,5.28123e+07
2024-03-05,0.04079,7.74579e+07
2024-03-03,0.0452,2.49981e+07
2024-03-01,0.0449,1.52322e+07
2024-02-28,0.04428,3.49034e+07
2024-02-26,0.04781,1.60702e+07
2024-02-24,0.04581,9.37496e+06
2024-02-22,0.04611,1.56893e+07
2024-02-20,0.04829,2.48734e+07
2024-02-18,0.0513,2.83547e+07
2024-02-16,0.04281,1.26315e+07
2024-02-14,0.04348,1.88903e+07
2024-02-12,0.04154,1.53597e+07
2024-02-10,0.04222,13451713.093
2024-02-08,0.03873,1.16391e+07
2024-02-06,0.03946,1.13338e+07
2024-02-04,0.03962,7.44053e+06
2024-02-02,0.04074,8.28135e+06
2024-01-31,0.03998,2.06791e+07
2024-01-29,0.04248,1.65078e+07